#FIG 3.2
Landscape
Center
Inches
Letter  
100.00
Single
-2
1200 2
1 2 0 3 0 7 50 0 -1 0.000 1 4.0143 1463 6000 262 487 1724 6000 1200 6000
2 1 0 3 0 7 100 0 -1 0.000 0 0 -1 0 0 2
	 6975 6300 7650 6300
2 2 0 3 0 7 100 0 -1 0.000 0 0 -1 0 0 5
	 8925 6075 9150 6075 9150 6525 8925 6525 8925 6075
2 1 0 3 0 7 100 0 -1 0.000 0 0 -1 0 0 2
	 8175 6300 8850 6300
2 2 0 3 0 7 100 0 -1 0.000 0 0 -1 0 0 5
	 6675 6075 6900 6075 6900 6525 6675 6525 6675 6075
2 1 0 5 20 20 100 0 20 0.000 0 0 -1 0 0 5
	 7959 6154 7694 6419 7800 6525 8065 6260 7959 6154
2 1 0 3 0 7 100 0 -1 0.000 0 0 -1 0 0 2
	 1350 5625 3675 5625
2 1 0 3 0 7 100 0 -1 0.000 0 0 -1 0 0 2
	 3562 5646 3886 6233
2 1 0 3 0 7 100 0 -1 0.000 0 0 -1 0 0 2
	 3900 6300 6600 6300
2 3 0 3 0 7 100 0 -1 0.000 0 0 -1 0 0 10
	 7800 6075 7950 6075 7950 5700 8250 5700 8250 5250 7425 5250
	 7425 5700 7725 5700 7725 6075 7800 6075
2 1 0 10 0 7 100 0 -1 0.000 0 0 -1 0 0 2
	 3605 6150 4125 6450
2 2 0 1 0 -1 100 0 20 0.000 0 0 -1 0 0 5
	 5825 5875 5925 5875 5925 6225 5825 6225 5825 5875
2 2 0 1 0 -1 100 0 20 0.000 0 0 -1 0 0 5
	 5825 6400 5925 6400 5925 6750 5825 6750 5825 6400
2 1 0 10 0 7 100 0 -1 0.000 0 0 -1 0 0 2
	 3359 5443 3878 5743
4 0 20 100 0 18 24 0.0000 4 360 1320 7350 7050 Sample\001
4 0 0 100 0 18 24 0.0000 4 285 2790 2250 6975 Monochromator\001
4 0 0 100 0 18 24 0.0000 4 285 795 5475 5625 Slits\001
4 0 0 100 0 18 24 0.0000 4 285 2355 6900 4650 Fluorescence\001
4 0 0 100 0 18 24 0.0000 4 285 2175 525 5400 x-ray source\001
4 0 0 100 0 19 28 0.0000 4 315 120 6600 5850 I\001
4 0 0 100 0 19 28 0.0000 4 315 120 7575 5025 I\001
4 0 0 100 0 19 28 0.0000 4 315 120 8925 5925 I\001
4 0 0 100 0 19 20 0.0000 4 195 150 6750 5925 0\001
4 0 0 100 0 19 20 0.0000 4 210 105 7725 5100 f\001
